{
  "resourceType": "Bundle",
  "type": "transaction",
  "entry": [
    {
      "resource": {
        "resourceType": "Organization",
        "id": "1",
        "name": "ABC Hospital",
        "telecom": [
          {
            "system": "phone",
            "value": "03-1234-5678"
          }
        ],
        "address": [
          {
            "use": "work",
            "line": ["123 Medical St"],
            "city": "Tokyo",
            "state": "Tokyo",
            "postalCode": "100-0001",
            "country": "Japan"
          }
        ]
      },
      "request": {
        "method": "POST",
        "url": "Organization"
      }
    },
    {
      "resource": {
        "resourceType": "Practitioner",
        "id": "1",
        "name": [
          {
            "family": "Tanaka",
            "given": ["Ichiro"]
          }
        ],
        "gender": "male",
        "address": [
          {
            "line": ["1-1, Medical Street"],
            "city": "Tokyo",
            "state": "Tokyo",
            "postalCode": "100-0001",
            "country": "Japan"
          }
        ],
        "telecom": [
          {
            "system": "phone",
            "value": "090-1234-5678"
          }
        ]
      },
      "request": {
        "method": "POST",
        "url": "Practitioner"
      }
    },
    {
      "resource": {
        "resourceType": "Patient",
        "id": "patient-001",
        "identifier": [
          { "use": "official", "system": "http://hospital.smarthealthit.org/patients", "value": "001" }
        ],
        "active": true,
        "name": [
          { "family": "Yamada", "given": ["Taro"] }
        ],
        "gender": "male",
        "birthDate": "1990-01-01",
        "deceasedBoolean": false,
        "address": [
          { "use": "home", "line": ["1-1 Shibuya", "Building 1"], "city": "Tokyo", "state": "Tokyo", "postalCode": "150-0001", "country": "Japan" }
        ],
        "telecom": [
          { "system": "phone", "value": "090-1234-5678", "use": "mobile" },
          { "system": "email", "value": "taro.yamada@example.com", "use": "home" }
        ],
        "maritalStatus": { "coding": [{ "system": "http://hl7.org/fhir/marital-status", "code": "M", "display": "Married" }] },
        "multipleBirthBoolean": false,
        "photo": [
          { "contentType": "image/jpeg", "url": "http://example.com/photo1.jpg" }
        ],
        "contact": [
          {
            "relationship": [{ "coding": [{ "system": "http://terminology.hl7.org/CodeSystem/v2-0131", "code": "FTH", "display": "Father" }] }],
            "name": { "family": "Yamada", "given": ["Ichiro"] },
            "telecom": [{ "system": "phone", "value": "090-8765-4321" }],
            "address": { "line": ["2-2 Shibuya"], "city": "Tokyo", "state": "Tokyo", "postalCode": "150-0002", "country": "Japan" },
            "gender": "male",
            "organization": { "reference": "Organization/1" },
            "period": { "start": "2010-01-01", "end": "2025-01-01" }
          }
        ],
        "communication": [
          { "language": { "coding": [{ "system": "urn:ietf:bcp:47", "code": "en", "display": "English" }] }, "preferred": true }
        ],
        "generalPractitioner": [{ "reference": "Practitioner/1" }],
        "managingOrganization": { "reference": "Organization/1" },
        "link": [
          {
            "other": { "reference": "Patient/patient-002" },
            "type": "refer"
          }
        ]
      },
      "request": {
        "method": "PUT",
        "url": "Patient/patient-001"
      }
    },
    {
      "resource": {
        "resourceType": "Patient",
        "id": "patient-002",
        "identifier": [
          { "use": "official", "system": "http://hospital.smarthealthit.org/patients", "value": "002" }
        ],
        "active": true,
        "name": [
          { "family": "Suzuki", "given": ["Hanako"] }
        ],
        "gender": "female",
        "birthDate": "1985-05-15",
        "deceasedBoolean": false,
        "address": [
          { "use": "home", "line": ["3-3 Shibuya", "Building 2"], "city": "Tokyo", "state": "Tokyo", "postalCode": "150-0003", "country": "Japan" }
        ],
        "telecom": [
          { "system": "phone", "value": "090-2345-6789", "use": "mobile" },
          { "system": "email", "value": "hanako.suzuki@example.com", "use": "home" }
        ],
        "maritalStatus": { "coding": [{ "system": "http://hl7.org/fhir/marital-status", "code": "S", "display": "Single" }] },
        "multipleBirthBoolean": false,
        "photo": [
          { "contentType": "image/jpeg", "url": "http://example.com/photo2.jpg" }
        ],
        "contact": [
          {
            "relationship": [{ "coding": [{ "system": "http://terminology.hl7.org/CodeSystem/v2-0131", "code": "MTH", "display": "Mother" }] }],
            "name": { "family": "Suzuki", "given": ["Yukiko"] },
            "telecom": [{ "system": "phone", "value": "090-1234-9876" }],
            "address": { "line": ["4-4 Shibuya"], "city": "Tokyo", "state": "Tokyo", "postalCode": "150-0004", "country": "Japan" },
            "gender": "female",
            "organization": { "reference": "Organization/2" },
            "period": { "start": "2015-01-01", "end": "2025-01-01" }
          }
        ],
        "communication": [
          { "language": { "coding": [{ "system": "urn:ietf:bcp:47", "code": "ja", "display": "Japanese" }] }, "preferred": true }
        ],
        "generalPractitioner": [{ "reference": "Practitioner/1" }],
        "managingOrganization": { "reference": "Organization/1" },
        "link": [
          {
            "other": { "reference": "Patient/patient-001" },
            "type": "refer"
          }
        ]
      },
      "request": {
        "method": "PUT",
        "url": "Patient/patient-002"
      }
    }
  ]
}
